溫度2，執行#1
時間 ( 秒 )	溫度2 ( °C )
0.0000	23.85
0.5000	23.85
1.0000	23.85
1.5000	23.85
2.0000	23.85
2.5000	23.85
3.0000	23.85
3.5000	23.83
4.0000	23.83
4.5000	23.82
5.0000	23.82
5.5000	23.80
6.0000	23.80
6.5000	23.79
7.0000	23.79
7.5000	23.77
8.0000	23.79
8.5000	23.81
9.0000	23.83
9.5000	23.88
10.0000	23.95
10.5000	24.02
11.0000	24.10
11.5000	24.19
12.0000	24.29
12.5000	24.38
13.0000	24.50
13.5000	24.60
14.0000	24.72
14.5000	24.85
15.0000	24.98
15.5000	25.08
16.0000	25.19
16.5000	25.29
17.0000	25.39
17.5000	25.50
18.0000	25.61
18.5000	25.71
19.0000	25.81
19.5000	25.92
20.0000	25.99
20.5000	26.08
21.0000	26.15
21.5000	26.21
22.0000	26.26
22.5000	26.32
23.0000	26.40
23.5000	26.48
24.0000	26.53
24.5000	26.58
25.0000	26.64
25.5000	26.70
26.0000	26.75
26.5000	26.83
27.0000	26.91
27.5000	26.97
28.0000	27.02
28.5000	27.06
29.0000	27.09
29.5000	27.13
30.0000	27.18
30.5000	27.21
31.0000	27.26
31.5000	27.30
32.0000	27.33
32.5000	27.35
33.0000	27.35
33.5000	27.37
34.0000	27.40
34.5000	27.43
35.0000	27.45
35.5000	27.46
36.0000	27.50
36.5000	27.52
37.0000	27.56
37.5000	27.56
38.0000	27.57
38.5000	27.60
39.0000	27.62
39.5000	27.67
40.0000	27.72
40.5000	27.74
41.0000	27.76
41.5000	27.77
42.0000	27.80
42.5000	27.81
43.0000	27.84
43.5000	27.86
44.0000	27.92
44.5000	27.97
45.0000	28.01
45.5000	28.01
46.0000	28.01
46.5000	28.02
47.0000	28.02
47.5000	28.02
48.0000	28.05
48.5000	28.07
49.0000	28.06
49.5000	28.05
50.0000	28.06
50.5000	28.10
51.0000	28.14
51.5000	28.16
52.0000	28.17
52.5000	28.20
53.0000	28.24
53.5000	28.28
54.0000	28.30
54.5000	28.28
55.0000	28.29
55.5000	28.29
56.0000	28.31
56.5000	28.36
57.0000	28.41
57.5000	28.45
58.0000	28.46
58.5000	28.46
59.0000	28.43
59.5000	28.39
60.0000	28.37
60.5000	28.38
61.0000	28.37
61.5000	28.38
62.0000	28.43
62.5000	28.42
63.0000	28.42
63.5000	28.43
64.0000	28.44
64.5000	28.47
65.0000	28.50
65.5000	28.52
66.0000	28.55
66.5000	28.58
67.0000	28.58
67.5000	28.58
68.0000	28.56
68.5000	28.53
69.0000	28.51
69.5000	28.51
70.0000	28.50
70.5000	28.54
71.0000	28.56
71.5000	28.54
72.0000	28.58
72.5000	28.60
73.0000	28.60
73.5000	28.60
74.0000	28.59
74.5000	28.59
75.0000	28.57
75.5000	28.54
76.0000	28.51
76.5000	28.50
77.0000	28.46
77.5000	28.43
78.0000	28.44
78.5000	28.45
79.0000	28.46
79.5000	28.47
80.0000	28.47
80.5000	28.47
81.0000	28.51
81.5000	28.56
82.0000	28.60
82.5000	28.59
83.0000	28.58
83.5000	28.58
84.0000	28.59
84.5000	28.58
85.0000	28.55
85.5000	28.54
86.0000	28.53
86.5000	28.52
87.0000	28.50
87.5000	28.48
88.0000	28.47
88.5000	28.47
89.0000	28.45
89.5000	28.45
90.0000	28.45
90.5000	28.46
91.0000	28.46
91.5000	28.46
92.0000	28.48
92.5000	28.51
93.0000	28.50
93.5000	28.51
94.0000	28.51
94.5000	28.52
95.0000	28.53
95.5000	28.52
96.0000	28.53
96.5000	28.53
97.0000	28.52
97.5000	28.52
98.0000	28.56
98.5000	28.59
99.0000	28.62
99.5000	28.63
100.0000	28.64
100.5000	28.66
101.0000	28.66
101.5000	28.66
102.0000	28.67
102.5000	28.69
103.0000	28.68
103.5000	28.68
104.0000	28.67
104.5000	28.66
105.0000	28.64
105.5000	28.62
106.0000	28.60
106.5000	28.59
107.0000	28.58
107.5000	28.55
108.0000	28.53
108.5000	28.52
109.0000	28.49
109.5000	28.49
110.0000	28.49
110.5000	28.55
111.0000	28.53
111.5000	28.55
112.0000	28.55
112.5000	28.59
113.0000	28.61
113.5000	28.61
114.0000	28.62
114.5000	28.60
115.0000	28.59
115.5000	28.58
116.0000	28.58
116.5000	28.58
117.0000	28.60
117.5000	28.61
118.0000	28.64
118.5000	28.67
119.0000	28.66
119.5000	28.65
120.0000	28.66
120.5000	28.66
121.0000	28.68
121.5000	28.68
122.0000	28.71
122.5000	28.72
123.0000	28.72
123.5000	28.70
124.0000	28.69
124.5000	28.68
125.0000	28.71
125.5000	28.75
126.0000	28.76
126.5000	28.77
127.0000	28.76
127.5000	28.75
128.0000	28.74
128.5000	28.71
129.0000	28.70
129.5000	28.70
130.0000	28.70
130.5000	28.70
131.0000	28.71
131.5000	28.71
132.0000	28.72
132.5000	28.73
133.0000	28.75
133.5000	28.80
134.0000	28.85
134.5000	28.91
135.0000	28.96
135.5000	29.01
136.0000	29.05
136.5000	29.09
137.0000	29.11
137.5000	29.13
138.0000	29.15
138.5000	29.16
139.0000	29.17
139.5000	29.19
140.0000	29.22
140.5000	29.24
141.0000	29.27
141.5000	29.28
142.0000	29.26
142.5000	29.24
143.0000	29.21
143.5000	29.18
144.0000	29.15
144.5000	29.10
145.0000	29.11
145.5000	29.13
146.0000	29.18
146.5000	29.18
147.0000	29.18
147.5000	29.18
148.0000	29.17
148.5000	29.14
149.0000	29.13
149.5000	29.15
150.0000	29.16
150.5000	29.14
151.0000	29.13
151.5000	29.10
152.0000	29.10
152.5000	29.08
153.0000	29.09
153.5000	29.10
154.0000	29.09
154.5000	29.10
155.0000	29.12
155.5000	29.15
156.0000	29.17
156.5000	29.16
157.0000	29.15
157.5000	29.14
158.0000	29.10
158.5000	29.04
159.0000	28.97
159.5000	28.92
160.0000	28.85
160.5000	28.79
161.0000	28.73
161.5000	28.67
162.0000	28.60
162.5000	28.52
163.0000	28.46
163.5000	28.38
164.0000	28.32
164.5000	28.22
165.0000	28.15
165.5000	28.08
166.0000	28.02
166.5000	27.94
167.0000	27.86
167.5000	27.78
168.0000	27.68
168.5000	27.58
169.0000	27.51
169.5000	27.43
170.0000	27.36
170.5000	27.26
171.0000	27.18
171.5000	27.11
172.0000	27.04
172.5000	26.98
173.0000	26.91
173.5000	26.86
174.0000	26.82
174.5000	26.79
175.0000	26.74
175.5000	26.71
176.0000	26.69
176.5000	26.63
177.0000	26.59
177.5000	26.55
178.0000	26.49
178.5000	26.44
179.0000	26.40
179.5000	26.37
180.0000	26.34
180.5000	26.31
181.0000	26.26
181.5000	26.22
182.0000	26.20
182.5000	26.17
183.0000	26.13
183.5000	26.10
184.0000	26.08
184.5000	26.04
185.0000	26.01
185.5000	25.98
186.0000	25.97
186.5000	25.95
187.0000	25.93
187.5000	25.91
188.0000	25.88
188.5000	25.87
189.0000	25.84
189.5000	25.82
190.0000	25.81
190.5000	25.80
191.0000	25.78
191.5000	25.78
192.0000	25.78
192.5000	25.77
193.0000	25.76
193.5000	25.75
194.0000	25.74
194.5000	25.73
195.0000	25.69
195.5000	25.67
196.0000	25.65
196.5000	25.64
197.0000	25.63
197.5000	25.61
198.0000	25.61
198.5000	25.61
199.0000	25.60
199.5000	25.61
200.0000	25.60
200.5000	25.58
201.0000	25.57
201.5000	25.56
202.0000	25.56
202.5000	25.56
203.0000	25.55
203.5000	25.54
204.0000	25.54
204.5000	25.54
205.0000	25.54
205.5000	25.55
206.0000	25.54
206.5000	25.51
207.0000	25.48
207.5000	25.47
208.0000	25.45
208.5000	25.44
209.0000	25.44
209.5000	25.43
210.0000	25.42
210.5000	25.41
211.0000	25.41
211.5000	25.41
212.0000	25.41
212.5000	25.41
213.0000	25.40
213.5000	25.39
214.0000	25.39
214.5000	25.39
215.0000	25.39
215.5000	25.38
216.0000	25.36
216.5000	25.32
217.0000	25.31
217.5000	25.30
218.0000	25.28
218.5000	25.27
219.0000	25.26
219.5000	25.25
220.0000	25.24
220.5000	25.24
221.0000	25.23
221.5000	25.22
222.0000	25.21
222.5000	25.20
223.0000	25.21
223.5000	25.22
224.0000	25.22
224.5000	25.22
225.0000	25.23
225.5000	25.22
226.0000	25.22
226.5000	25.23
227.0000	25.24
227.5000	25.24
228.0000	25.25
228.5000	25.26
229.0000	25.26
229.5000	25.27
230.0000	25.28
230.5000	25.28
231.0000	25.29
231.5000	25.28
232.0000	25.29
232.5000	25.29
233.0000	25.29
233.5000	25.29
234.0000	25.29
234.5000	25.30
235.0000	25.30
235.5000	25.30
236.0000	25.30
236.5000	25.30
237.0000	25.30
237.5000	25.29
238.0000	25.29
238.5000	25.27
239.0000	25.26
239.5000	25.26
240.0000	25.25
240.5000	25.26
241.0000	25.26
241.5000	25.25
242.0000	25.23
242.5000	25.23
243.0000	25.22
243.5000	25.21
244.0000	25.21
244.5000	25.21
245.0000	25.19
245.5000	25.20
246.0000	25.19
246.5000	25.19
247.0000	25.17
247.5000	25.15
248.0000	25.15
248.5000	25.14
249.0000	25.13
249.5000	25.12
250.0000	25.11
250.5000	25.12
251.0000	25.10
251.5000	25.11
252.0000	25.10
252.5000	25.10
253.0000	25.09
253.5000	25.08
254.0000	25.08
254.5000	25.07
255.0000	25.08
255.5000	25.08
256.0000	25.09
256.5000	25.09
257.0000	25.06
257.5000	25.04
258.0000	25.03
258.5000	25.02
259.0000	25.01
259.5000	25.00
260.0000	24.99
260.5000	24.98
261.0000	24.98
261.5000	24.98
262.0000	24.97
262.5000	24.98
263.0000	24.97
263.5000	24.97
264.0000	24.96
264.5000	24.97
265.0000	24.96
265.5000	24.97
266.0000	24.99
266.5000	24.99
267.0000	24.99
267.5000	25.00
268.0000	25.01
268.5000	25.00
269.0000	25.00
269.5000	24.99
270.0000	24.99
270.5000	24.97
271.0000	24.97
271.5000	24.97
272.0000	24.98
272.5000	24.98
273.0000	24.99
273.5000	24.99
274.0000	24.99
274.5000	24.99
275.0000	24.98
275.5000	24.99
276.0000	24.98
276.5000	24.96
277.0000	24.94
277.5000	24.95
278.0000	24.96
278.5000	24.97
279.0000	24.96
279.5000	24.96
280.0000	24.96
280.5000	24.96
281.0000	24.96
281.5000	24.96
282.0000	24.97
282.5000	24.96
283.0000	24.97
283.5000	24.97
284.0000	24.97
284.5000	24.98
285.0000	24.98
285.5000	24.97
286.0000	24.98
286.5000	24.98
287.0000	24.97
287.5000	24.98
288.0000	24.97
288.5000	24.97
289.0000	24.96
289.5000	24.96
290.0000	24.96
290.5000	24.95
291.0000	24.96
291.5000	24.95
292.0000	24.95
292.5000	24.94
293.0000	24.94
293.5000	24.95
294.0000	24.94
294.5000	24.94
295.0000	24.93
295.5000	24.92
296.0000	24.90
296.5000	24.88
297.0000	24.86
297.5000	24.84
298.0000	24.84
298.5000	24.84
299.0000	24.85
299.5000	24.83
300.0000	24.83
300.5000	24.83
301.0000	24.82
301.5000	24.83
302.0000	24.83
302.5000	24.84
303.0000	24.85
303.5000	24.84
304.0000	24.85
304.5000	24.85
305.0000	24.84
305.5000	24.84
306.0000	24.84
306.5000	24.83
307.0000	24.83
307.5000	24.83
308.0000	24.83
308.5000	24.83
309.0000	24.83
309.5000	24.84
310.0000	24.83
310.5000	24.82
311.0000	24.82
311.5000	24.82
312.0000	24.82
312.5000	24.81
313.0000	24.81
313.5000	24.81
314.0000	24.79
314.5000	24.80
315.0000	24.79
315.5000	24.79
316.0000	24.78
316.5000	24.79
317.0000	24.78
317.5000	24.78
318.0000	24.79
318.5000	24.79
319.0000	24.80
319.5000	24.80
320.0000	24.79
320.5000	24.78
321.0000	24.78
321.5000	24.77
322.0000	24.76
322.5000	24.76
323.0000	24.75
323.5000	24.74
324.0000	24.73
324.5000	24.71
325.0000	24.69
325.5000	24.67
326.0000	24.67
326.5000	24.67
327.0000	24.67
327.5000	24.67
328.0000	24.66
328.5000	24.66
329.0000	24.67
329.5000	24.65
330.0000	24.65
330.5000	24.65
331.0000	24.65
331.5000	24.66
332.0000	24.66
332.5000	24.66
333.0000	24.68
333.5000	24.68
334.0000	24.69
334.5000	24.71
335.0000	24.71
335.5000	24.72
336.0000	24.71
336.5000	24.70
337.0000	24.70
337.5000	24.68
338.0000	24.67
338.5000	24.66
339.0000	24.64
339.5000	24.64
340.0000	24.63
340.5000	24.62
341.0000	24.63
341.5000	24.63
342.0000	24.63
342.5000	24.62
343.0000	24.63
343.5000	24.62
344.0000	24.61
344.5000	24.60
345.0000	24.61
345.5000	24.62
346.0000	24.62
346.5000	24.64
347.0000	24.63
347.5000	24.65
348.0000	24.65
348.5000	24.67
349.0000	24.67
349.5000	24.68
350.0000	24.69
350.5000	24.69
351.0000	24.70
351.5000	24.70
352.0000	24.68
352.5000	24.68
353.0000	24.67
353.5000	24.67
354.0000	24.66
354.5000	24.65
355.0000	24.64
355.5000	24.63
356.0000	24.63
356.5000	24.62
357.0000	24.62
357.5000	24.62
358.0000	24.61
358.5000	24.60
359.0000	24.59
359.5000	24.59
360.0000	24.60
360.5000	24.60
361.0000	24.61
361.5000	24.60
362.0000	24.60
362.5000	24.59
363.0000	24.58
363.5000	24.57
364.0000	24.56
364.5000	24.55
365.0000	24.55
365.5000	24.53
366.0000	24.55
366.5000	24.54
367.0000	24.54
367.5000	24.54
368.0000	24.54
368.5000	24.54
369.0000	24.54
369.5000	24.54
370.0000	24.54
370.5000	24.53
371.0000	24.52
371.5000	24.50
372.0000	24.49
372.5000	24.49
373.0000	24.50
373.5000	24.50
374.0000	24.51
374.5000	24.52
375.0000	24.53
375.5000	24.53
376.0000	24.54
376.5000	24.54
377.0000	24.53
377.5000	24.53
378.0000	24.52
378.5000	24.52
379.0000	24.51
379.5000	24.50
380.0000	24.50
380.5000	24.48
381.0000	24.48
381.5000	24.49
382.0000	24.48
382.5000	24.47
383.0000	24.47
383.5000	24.48
384.0000	24.49
384.5000	24.50
385.0000	24.50
385.5000	24.51
386.0000	24.51
386.5000	24.51
387.0000	24.51
387.5000	24.52
388.0000	24.52
388.5000	24.53
389.0000	24.53
389.5000	24.52
390.0000	24.51
390.5000	24.49
391.0000	24.49
391.5000	24.50
392.0000	24.50
392.5000	24.50
393.0000	24.51
393.5000	24.51
394.0000	24.49
394.5000	24.49
395.0000	24.48
395.5000	24.47
396.0000	24.47
396.5000	24.47
397.0000	24.46
397.5000	24.47
398.0000	24.47
398.5000	24.47
399.0000	24.46
399.5000	24.46
400.0000	24.46
400.5000	24.47
401.0000	24.46
401.5000	24.46
402.0000	24.45
402.5000	24.45
403.0000	24.46
403.5000	24.47
404.0000	24.48
404.5000	24.49
405.0000	24.49
405.5000	24.49
406.0000	24.50
406.5000	24.50
407.0000	24.50
407.5000	24.51
408.0000	24.51
408.5000	24.51
409.0000	24.51
409.5000	24.51
410.0000	24.52
410.5000	24.52
411.0000	24.52
411.5000	24.52
412.0000	24.52
412.5000	24.52
413.0000	24.52
413.5000	24.53
414.0000	24.52
414.5000	24.51
415.0000	24.52
415.5000	24.51
416.0000	24.50
416.5000	24.50
417.0000	24.51
417.5000	24.51
418.0000	24.51
418.5000	24.52
419.0000	24.52
419.5000	24.52
420.0000	24.52
420.5000	24.52
421.0000	24.52
421.5000	24.52
422.0000	24.51
422.5000	24.50
423.0000	24.48
423.5000	24.48
424.0000	24.47
424.5000	24.46
425.0000	24.45
425.5000	24.45
426.0000	24.42
426.5000	24.42
427.0000	24.42
427.5000	24.41
428.0000	24.42
428.5000	24.42
429.0000	24.42
429.5000	24.42
430.0000	24.42
430.5000	24.42
431.0000	24.43
431.5000	24.43
432.0000	24.42
432.5000	24.41
433.0000	24.41
433.5000	24.41
434.0000	24.41
434.5000	24.41
435.0000	24.41
435.5000	24.41
436.0000	24.40
436.5000	24.41
437.0000	24.41
437.5000	24.40
438.0000	24.41
438.5000	24.41
439.0000	24.42
439.5000	24.41
440.0000	24.42
440.5000	24.41
441.0000	24.39
441.5000	24.39
442.0000	24.39
442.5000	24.40
443.0000	24.41
443.5000	24.42
444.0000	24.42
444.5000	24.42
445.0000	24.43
445.5000	24.43
446.0000	24.44
446.5000	24.42
447.0000	24.41
447.5000	24.41
448.0000	24.39
448.5000	24.40
449.0000	24.39
449.5000	24.39
450.0000	24.39
450.5000	24.39
451.0000	24.39
451.5000	24.39
452.0000	24.40
452.5000	24.40
453.0000	24.40
453.5000	24.41
454.0000	24.41
454.5000	24.41
455.0000	24.40
455.5000	24.40
456.0000	24.39
456.5000	24.38
457.0000	24.37
457.5000	24.36
458.0000	24.37
458.5000	24.38
459.0000	24.37
459.5000	24.36
460.0000	24.36
460.5000	24.35
461.0000	24.35
461.5000	24.36
462.0000	24.36
462.5000	24.36
463.0000	24.36
463.5000	24.36
464.0000	24.36
464.5000	24.37
465.0000	24.37
465.5000	24.38
466.0000	24.38
466.5000	24.39
467.0000	24.39
467.5000	24.39
468.0000	24.39
468.5000	24.39
469.0000	24.38
469.5000	24.37
470.0000	24.35
470.5000	24.35
471.0000	24.35
471.5000	24.35
472.0000	24.35
472.5000	24.35
473.0000	24.35
473.5000	24.34
474.0000	24.34
474.5000	24.35
475.0000	24.35
475.5000	24.35
476.0000	24.35
476.5000	24.36
477.0000	24.36
477.5000	24.37
478.0000	24.37
478.5000	24.36
479.0000	24.34
479.5000	24.32
480.0000	24.33
480.5000	24.31
481.0000	24.31
481.5000	24.31
482.0000	24.30
482.5000	24.30
483.0000	24.28
483.5000	24.27
484.0000	24.28
484.5000	24.27
485.0000	24.27
485.5000	24.26
486.0000	24.26
486.5000	24.26
487.0000	24.27
487.5000	24.27
488.0000	24.27
488.5000	24.26
489.0000	24.26
489.5000	24.26
490.0000	24.26
490.5000	24.26
491.0000	24.25
491.5000	24.25
492.0000	24.24
492.5000	24.24
493.0000	24.24
493.5000	24.23
494.0000	24.22
494.5000	24.21
495.0000	24.21
495.5000	24.21
496.0000	24.20
496.5000	24.21
497.0000	24.20
497.5000	24.19
498.0000	24.18
498.5000	24.15
499.0000	24.13
499.5000	24.12
500.0000	24.12
500.5000	24.10
501.0000	24.08
501.5000	24.08
502.0000	24.08
502.5000	24.07
503.0000	24.07
503.5000	24.08
504.0000	24.10
504.5000	24.11
505.0000	24.11
505.5000	24.10
506.0000	24.09
506.5000	24.08
507.0000	24.08
507.5000	24.08
508.0000	24.08
508.5000	24.08
509.0000	24.08
509.5000	24.08
510.0000	24.08
510.5000	24.08
511.0000	24.09
511.5000	24.11
512.0000	24.12
512.5000	24.12
513.0000	24.13
513.5000	24.14
514.0000	24.14
514.5000	24.15
515.0000	24.15
515.5000	24.15
516.0000	24.13
516.5000	24.11
517.0000	24.11
517.5000	24.11
518.0000	24.12
518.5000	24.12
519.0000	24.12
519.5000	24.13
520.0000	24.13
520.5000	24.14
521.0000	24.14
521.5000	24.13
522.0000	24.14
522.5000	24.14
523.0000	24.14
523.5000	24.13
524.0000	24.13
524.5000	24.13
525.0000	24.13
525.5000	24.13
526.0000	24.13
526.5000	24.13
527.0000	24.11
527.5000	24.11
528.0000	24.11
528.5000	24.11
529.0000	24.09
529.5000	24.07
530.0000	24.08
530.5000	24.08
531.0000	24.09
531.5000	24.08
532.0000	24.08
532.5000	24.07
533.0000	24.07
533.5000	24.06
534.0000	24.07
534.5000	24.08
535.0000	24.08
535.5000	24.09
536.0000	24.09
536.5000	24.09
537.0000	24.09
537.5000	24.09
538.0000	24.09
538.5000	24.09
539.0000	24.10
539.5000	24.10
540.0000	24.09
540.5000	24.09
541.0000	24.09
541.5000	24.09
542.0000	24.09
542.5000	24.09
543.0000	24.09
543.5000	24.09
544.0000	24.09
544.5000	24.09
545.0000	24.10
545.5000	24.09
546.0000	24.09
546.5000	24.09
547.0000	24.07
547.5000	24.06
548.0000	24.06
548.5000	24.06
549.0000	24.06
549.5000	24.05
550.0000	24.05
550.5000	24.05
551.0000	24.05
551.5000	24.05
552.0000	24.05
552.5000	24.04
553.0000	24.02
553.5000	24.02
554.0000	24.01
554.5000	24.02
555.0000	24.01
555.5000	24.02
556.0000	24.03
556.5000	24.02
557.0000	24.02
557.5000	24.02
558.0000	24.02
558.5000	24.02
559.0000	24.02
559.5000	24.00
560.0000	24.00
560.5000	24.01
561.0000	24.00
561.5000	24.00
562.0000	24.01
562.5000	24.00
563.0000	23.98
563.5000	23.97
564.0000	23.97
564.5000	23.97
565.0000	23.97
565.5000	23.99
566.0000	23.98
566.5000	23.97
567.0000	23.96
567.5000	23.96
568.0000	23.95
568.5000	23.96
569.0000	23.95
569.5000	23.95
570.0000	23.96
570.5000	23.97
571.0000	23.96
571.5000	23.96
572.0000	23.95
572.5000	23.96
573.0000	23.94
573.5000	23.93
574.0000	23.91
574.5000	23.92
575.0000	23.91
575.5000	23.92
576.0000	23.92
576.5000	23.92
577.0000	23.91
577.5000	23.92
578.0000	23.91
578.5000	23.89
579.0000	23.87
579.5000	23.85
580.0000	23.84
580.5000	23.83
581.0000	23.82
581.5000	23.83
582.0000	23.82
582.5000	23.82
583.0000	23.84
583.5000	23.84
584.0000	23.83
584.5000	23.83
585.0000	23.84
585.5000	23.83
586.0000	23.82
586.5000	23.80
587.0000	23.81
587.5000	23.79
588.0000	23.77
588.5000	23.77
589.0000	23.78
589.5000	23.78
590.0000	23.78
590.5000	23.77
591.0000	23.75
591.5000	23.73
592.0000	23.74
592.5000	23.73
593.0000	23.73
593.5000	23.74
594.0000	23.75
594.5000	23.75
595.0000	23.76
595.5000	23.76
596.0000	23.78
596.5000	23.79
597.0000	23.80
597.5000	23.80
598.0000	23.79
598.5000	23.78
599.0000	23.78
599.5000	23.78
600.0000	23.79
600.5000	23.78
601.0000	23.76
601.5000	23.76
602.0000	23.74
602.5000	23.71
603.0000	23.70
603.5000	23.67
604.0000	23.66
604.5000	23.65
605.0000	23.64
605.5000	23.64
606.0000	23.63
606.5000	23.61
607.0000	23.60
607.5000	23.58
608.0000	23.57
608.5000	23.57
609.0000	23.56
609.5000	23.57
610.0000	23.57
610.5000	23.56
611.0000	23.57
611.5000	23.58
612.0000	23.58
612.5000	23.58
613.0000	23.59
613.5000	23.60
614.0000	23.61
614.5000	23.62
615.0000	23.63
615.5000	23.64
616.0000	23.65
616.5000	23.66
617.0000	23.66
617.5000	23.68
618.0000	23.67
618.5000	23.67
619.0000	23.66
619.5000	23.64
620.0000	23.64
620.5000	23.62
621.0000	23.61
621.5000	23.60
622.0000	23.59
622.5000	23.58
623.0000	23.57
623.5000	23.57
624.0000	23.56
624.5000	23.55
625.0000	23.54
625.5000	23.54
626.0000	23.53
626.5000	23.52
627.0000	23.52
627.5000	23.51
628.0000	23.51
628.5000	23.50
629.0000	23.49
629.5000	23.49
630.0000	23.49
630.5000	23.48
631.0000	23.49
631.5000	23.50
632.0000	23.52
632.5000	23.53
633.0000	23.53
633.5000	23.54
634.0000	23.55
634.5000	23.56
635.0000	23.56
635.5000	23.55
636.0000	23.56
636.5000	23.55
637.0000	23.54
637.5000	23.52
638.0000	23.52
638.5000	23.51
639.0000	23.52
639.5000	23.52
640.0000	23.51
640.5000	23.52
641.0000	23.50
641.5000	23.50
642.0000	23.50
642.5000	23.49
643.0000	23.49
643.5000	23.49
644.0000	23.50
644.5000	23.51
645.0000	23.50
645.5000	23.49
646.0000	23.49
646.5000	23.48
647.0000	23.48
647.5000	23.47
648.0000	23.47
648.5000	23.46
649.0000	23.45
649.5000	23.46
650.0000	23.46
650.5000	23.48
651.0000	23.48
651.5000	23.49
652.0000	23.49
652.5000	23.49
653.0000	23.49
653.5000	23.49
654.0000	23.48
654.5000	23.49
655.0000	23.50
655.5000	23.49
656.0000	23.49
656.5000	23.49
657.0000	23.50
657.5000	23.49
658.0000	23.50
658.5000	23.50
659.0000	23.49
659.5000	23.50
660.0000	23.51
660.5000	23.52
661.0000	23.52
661.5000	23.53
662.0000	23.53
662.5000	23.52
663.0000	23.51
663.5000	23.51
664.0000	23.52
664.5000	23.52
665.0000	23.52
665.5000	23.53
666.0000	23.53
666.5000	23.54
667.0000	23.54
667.5000	23.54
668.0000	23.54
668.5000	23.54
669.0000	23.55
669.5000	23.56
670.0000	23.57
670.5000	23.56
671.0000	23.57
671.5000	23.56
672.0000	23.54
672.5000	23.54
673.0000	23.54
673.5000	23.53
674.0000	23.53
674.5000	23.51
675.0000	23.51
675.5000	23.50
676.0000	23.50
676.5000	23.50
677.0000	23.50
677.5000	23.50
678.0000	23.50
678.5000	23.50
679.0000	23.49
679.5000	23.48
680.0000	23.48
680.5000	23.48
681.0000	23.49
681.5000	23.49
682.0000	23.49
682.5000	23.49
683.0000	23.48
683.5000	23.48
684.0000	23.48
684.5000	23.48
685.0000	23.49
685.5000	23.50
686.0000	23.50
686.5000	23.48
687.0000	23.50
687.5000	23.50
688.0000	23.51
688.5000	23.50
689.0000	23.51
689.5000	23.51
690.0000	23.51
690.5000	23.51
691.0000	23.51
691.5000	23.52
692.0000	23.52
692.5000	23.50
693.0000	23.50
693.5000	23.49
694.0000	23.48
694.5000	23.47
695.0000	23.48
695.5000	23.49
696.0000	23.49
696.5000	23.50
697.0000	23.50
697.5000	23.51
698.0000	23.50
698.5000	23.50
699.0000	23.48
699.5000	23.48
700.0000	23.48
700.5000	23.47
701.0000	23.46
701.5000	23.46
702.0000	23.46
702.5000	23.46
703.0000	23.46
703.5000	23.47
704.0000	23.48
704.5000	23.49
705.0000	23.50
705.5000	23.50
706.0000	23.50
706.5000	23.51
707.0000	23.51
707.5000	23.52
708.0000	23.51
708.5000	23.52
709.0000	23.52
709.5000	23.52
710.0000	23.52
710.5000	23.52
711.0000	23.51
711.5000	23.50
712.0000	23.51
712.5000	23.51
713.0000	23.51
713.5000	23.52
714.0000	23.52
714.5000	23.53
715.0000	23.52
715.5000	23.53
716.0000	23.52
716.5000	23.53
717.0000	23.53
717.5000	23.54
718.0000	23.54
718.5000	23.54
719.0000	23.54
719.5000	23.54
720.0000	23.54
720.5000	23.54
721.0000	23.54
721.5000	23.55
722.0000	23.55
722.5000	23.54
723.0000	23.54
723.5000	23.53
724.0000	23.51
724.5000	23.51
725.0000	23.51
725.5000	23.50
726.0000	23.49
726.5000	23.50
727.0000	23.49
727.5000	23.49
728.0000	23.48
728.5000	23.48
729.0000	23.49
729.5000	23.50
730.0000	23.51
730.5000	23.51
731.0000	23.52
731.5000	23.52
732.0000	23.53
732.5000	23.53
733.0000	23.54
733.5000	23.54
734.0000	23.53
734.5000	23.53
735.0000	23.53
735.5000	23.54
736.0000	23.54
736.5000	23.53
737.0000	23.53
737.5000	23.53
738.0000	23.53
738.5000	23.53
739.0000	23.54
739.5000	23.53
740.0000	23.53
740.5000	23.53
741.0000	23.54
741.5000	23.54
742.0000	23.53
742.5000	23.54
743.0000	23.54
743.5000	23.55
744.0000	23.55
744.5000	23.55
745.0000	23.55
745.5000	23.56
746.0000	23.56
746.5000	23.56
747.0000	23.56
747.5000	23.57
748.0000	23.57
748.5000	23.57
749.0000	23.57
749.5000	23.57
750.0000	23.56
750.5000	23.56
751.0000	23.56
751.5000	23.56
752.0000	23.55
752.5000	23.55
753.0000	23.55
753.5000	23.55
754.0000	23.55
754.5000	23.55
755.0000	23.55
755.5000	23.55
756.0000	23.54
756.5000	23.54
757.0000	23.54
757.5000	23.54
758.0000	23.54
758.5000	23.54
759.0000	23.54
759.5000	23.54
760.0000	23.54
760.5000	23.54
761.0000	23.54
761.5000	23.54
762.0000	23.54
762.5000	23.55
763.0000	23.55
763.5000	23.55
764.0000	23.54
764.5000	23.53
765.0000	23.53
765.5000	23.52
766.0000	23.52
766.5000	23.52
767.0000	23.52
767.5000	23.52
768.0000	23.53
768.5000	23.54
769.0000	23.53
769.5000	23.54
770.0000	23.52
770.5000	23.52
771.0000	23.52
771.5000	23.52
772.0000	23.52
772.5000	23.53
773.0000	23.53
773.5000	23.53
774.0000	23.53
774.5000	23.53
775.0000	23.52
775.5000	23.51
776.0000	23.52
776.5000	23.51
777.0000	23.51
777.5000	23.50
778.0000	23.50
778.5000	23.50
779.0000	23.50
779.5000	23.50
780.0000	23.50
780.5000	23.50
781.0000	23.51
781.5000	23.51
782.0000	23.51
782.5000	23.49
783.0000	23.48
783.5000	23.48
784.0000	23.48
784.5000	23.48
785.0000	23.48
785.5000	23.48
786.0000	23.49
786.5000	23.49
787.0000	23.50
787.5000	23.49
788.0000	23.49
788.5000	23.49
789.0000	23.49
789.5000	23.48
790.0000	23.48
790.5000	23.49
791.0000	23.49
791.5000	23.48
792.0000	23.49
792.5000	23.50
793.0000	23.50
793.5000	23.51
794.0000	23.50
794.5000	23.51
795.0000	23.51
795.5000	23.51
796.0000	23.51
796.5000	23.51
797.0000	23.51
797.5000	23.51
798.0000	23.50
798.5000	23.51
799.0000	23.51
799.5000	23.51
800.0000	23.51
800.5000	23.51
801.0000	23.52
801.5000	23.51
802.0000	23.51
802.5000	23.51
803.0000	23.52
803.5000	23.52
804.0000	23.53
804.5000	23.52
805.0000	23.53
805.5000	23.52
806.0000	23.52
806.5000	23.51
807.0000	23.51
807.5000	23.50
808.0000	23.50
808.5000	23.50
809.0000	23.50
809.5000	23.50
810.0000	23.50
810.5000	23.51
811.0000	23.51
811.5000	23.51
812.0000	23.51
812.5000	23.50
813.0000	23.51
813.5000	23.52
814.0000	23.52
814.5000	23.52
815.0000	23.52
815.5000	23.52
816.0000	23.52
816.5000	23.53
817.0000	23.53
817.5000	23.53
818.0000	23.53
818.5000	23.53
819.0000	23.53
819.5000	23.53
820.0000	23.53
820.5000	23.53
821.0000	23.53
821.5000	23.53
822.0000	23.53
822.5000	23.52
823.0000	23.52
823.5000	23.52
824.0000	23.52
824.5000	23.53
825.0000	23.53
825.5000	23.53
826.0000	23.52
826.5000	23.52
827.0000	23.52
827.5000	23.52
828.0000	23.50
828.5000	23.50
829.0000	23.50
829.5000	23.50
830.0000	23.51
830.5000	23.51
831.0000	23.50
831.5000	23.51
832.0000	23.51
832.5000	23.50
833.0000	23.50
833.5000	23.50
834.0000	23.50
834.5000	23.50
835.0000	23.51
835.5000	23.52
836.0000	23.52
836.5000	23.52
837.0000	23.52
837.5000	23.52
838.0000	23.52
838.5000	23.52
839.0000	23.52
839.5000	23.53
840.0000	23.53
840.5000	23.53
841.0000	23.53
841.5000	23.53
842.0000	23.54
842.5000	23.54
843.0000	23.54
843.5000	23.54
844.0000	23.54
844.5000	23.54
845.0000	23.53
845.5000	23.51
846.0000	23.50
846.5000	23.49
847.0000	23.48
847.5000	23.48
848.0000	23.47
848.5000	23.47
849.0000	23.47
849.5000	23.47
850.0000	23.47
850.5000	23.47
851.0000	23.46
851.5000	23.46
852.0000	23.46
852.5000	23.47
853.0000	23.47
853.5000	23.47
854.0000	23.47
854.5000	23.46
855.0000	23.46
855.5000	23.47
856.0000	23.47
856.5000	23.48
857.0000	23.48
857.5000	23.48
858.0000	23.48
858.5000	23.49
859.0000	23.49
859.5000	23.49
860.0000	23.49
860.5000	23.49
861.0000	23.50
861.5000	23.50
862.0000	23.49
862.5000	23.48
863.0000	23.48
863.5000	23.47
864.0000	23.48
864.5000	23.47
865.0000	23.48
865.5000	23.48
866.0000	23.48
866.5000	23.47
867.0000	23.47
867.5000	23.47
868.0000	23.48
868.5000	23.48
869.0000	23.48
869.5000	23.48
870.0000	23.49
870.5000	23.49
871.0000	23.49
871.5000	23.49
872.0000	23.49
872.5000	23.49
873.0000	23.50
873.5000	23.50
874.0000	23.50
874.5000	23.50
875.0000	23.50
875.5000	23.50
876.0000	23.50
876.5000	23.49
877.0000	23.50
877.5000	23.50
878.0000	23.51
878.5000	23.51
879.0000	23.50
879.5000	23.50
880.0000	23.50
880.5000	23.50
881.0000	23.51
881.5000	23.50
882.0000	23.51
882.5000	23.51
883.0000	23.51
883.5000	23.52
884.0000	23.52
884.5000	23.52
885.0000	23.52
885.5000	23.52
886.0000	23.52
886.5000	23.52
887.0000	23.52
887.5000	23.52
888.0000	23.53
888.5000	23.53
889.0000	23.53
889.5000	23.53
890.0000	23.53
890.5000	23.52
891.0000	23.52
891.5000	23.51
892.0000	23.52
892.5000	23.51
893.0000	23.50
893.5000	23.50
894.0000	23.50
894.5000	23.50
895.0000	23.51
895.5000	23.50
896.0000	23.51
896.5000	23.50
897.0000	23.51
897.5000	23.51
898.0000	23.51
898.5000	23.50
899.0000	23.51
899.5000	23.51
900.0000	23.51
900.5000	23.51
901.0000	23.50
901.5000	23.50
902.0000	23.50
902.5000	23.50
903.0000	23.50
903.5000	23.49
904.0000	23.49
904.5000	23.49
905.0000	23.49
905.5000	23.49
906.0000	23.49
906.5000	23.49
907.0000	23.48
907.5000	23.49
908.0000	23.48
908.5000	23.47
909.0000	23.48
909.5000	23.47
910.0000	23.48
910.5000	23.49
911.0000	23.48
911.5000	23.49
912.0000	23.49
912.5000	23.49
913.0000	23.50
913.5000	23.50
914.0000	23.49
914.5000	23.49
915.0000	23.48
915.5000	23.48
916.0000	23.48
916.5000	23.48
917.0000	23.48
917.5000	23.48
918.0000	23.48
918.5000	23.48
919.0000	23.48
919.5000	23.49
920.0000	23.49
920.5000	23.50
921.0000	23.51
921.5000	23.51
922.0000	23.51
922.5000	23.51
923.0000	23.51
923.5000	23.52
924.0000	23.52
924.5000	23.52
925.0000	23.53
925.5000	23.52
926.0000	23.52
926.5000	23.52
927.0000	23.53
927.5000	23.53
928.0000	23.53
928.5000	23.53
929.0000	23.52
929.5000	23.52
930.0000	23.52
930.5000	23.53
931.0000	23.52
931.5000	23.53
932.0000	23.53
932.5000	23.53
933.0000	23.53
933.5000	23.54
934.0000	23.54
934.5000	23.54
935.0000	23.53
935.5000	23.52
936.0000	23.53
936.5000	23.53
937.0000	23.54
937.5000	23.53
938.0000	23.53
938.5000	23.54
939.0000	23.54
939.5000	23.54
940.0000	23.54
940.5000	23.54
941.0000	23.54
941.5000	23.53
942.0000	23.52
942.5000	23.51
943.0000	23.52
943.5000	23.51
944.0000	23.50
944.5000	23.51
945.0000	23.51
945.5000	23.49
946.0000	23.49
946.5000	23.49
947.0000	23.50
947.5000	23.50
948.0000	23.50
948.5000	23.50
949.0000	23.50
949.5000	23.50
950.0000	23.51
950.5000	23.51
951.0000	23.51
951.5000	23.52
952.0000	23.52
952.5000	23.52
953.0000	23.52
953.5000	23.52
954.0000	23.52
954.5000	23.52
955.0000	23.53
955.5000	23.52
956.0000	23.51
956.5000	23.52
957.0000	23.52
957.5000	23.52
958.0000	23.52
958.5000	23.53
959.0000	23.52
959.5000	23.52
960.0000	23.52
960.5000	23.52
961.0000	23.53
961.5000	23.53
962.0000	23.54
962.5000	23.54
963.0000	23.54
963.5000	23.55
964.0000	23.55
964.5000	23.54
965.0000	23.53
965.5000	23.53
966.0000	23.53
966.5000	23.54
967.0000	23.53
967.5000	23.52
968.0000	23.52
968.5000	23.51
969.0000	23.51
969.5000	23.51
970.0000	23.51
970.5000	23.51
971.0000	23.52
971.5000	23.52
972.0000	23.51
972.5000	23.52
973.0000	23.52
973.5000	23.52
974.0000	23.52
974.5000	23.52
975.0000	23.52
975.5000	23.51
976.0000	23.52
976.5000	23.51
977.0000	23.50
977.5000	23.49
978.0000	23.49
978.5000	23.49
979.0000	23.49
979.5000	23.49
980.0000	23.49
980.5000	23.48
981.0000	23.48
981.5000	23.48
982.0000	23.48
982.5000	23.48
983.0000	23.47
983.5000	23.48
984.0000	23.49
984.5000	23.49
985.0000	23.49
985.5000	23.50
986.0000	23.50
986.5000	23.51
987.0000	23.50
987.5000	23.51
988.0000	23.51
988.5000	23.52
989.0000	23.51
989.5000	23.52
990.0000	23.52
990.5000	23.52
991.0000	23.53
991.5000	23.53
992.0000	23.54
992.5000	23.54
993.0000	23.54
993.5000	23.54
994.0000	23.54
994.5000	23.54
995.0000	23.53
995.5000	23.54
996.0000	23.54
996.5000	23.54
997.0000	23.54
997.5000	23.54
998.0000	23.54
998.5000	23.55
999.0000	23.54
999.5000	23.54
1000.0000	23.54
1000.5000	23.54
1001.0000	23.54
1001.5000	23.53
1002.0000	23.53
1002.5000	23.53
1003.0000	23.54
1003.5000	23.54
1004.0000	23.54
1004.5000	23.54
1005.0000	23.54
1005.5000	23.54
1006.0000	23.54
1006.5000	23.54
1007.0000	23.53
1007.5000	23.53
1008.0000	23.53
1008.5000	23.53
1009.0000	23.52
1009.5000	23.52
1010.0000	23.53
1010.5000	23.53
1011.0000	23.52
1011.5000	23.52
1012.0000	23.53
1012.5000	23.52
1013.0000	23.52
1013.5000	23.52
1014.0000	23.52
1014.5000	23.53
1015.0000	23.54
1015.5000	23.54
1016.0000	23.54
1016.5000	23.54
1017.0000	23.54
1017.5000	23.54
1018.0000	23.54
1018.5000	23.54
1019.0000	23.55
1019.5000	23.55
1020.0000	23.55
1020.5000	23.56
1021.0000	23.55
1021.5000	23.55
1022.0000	23.56
1022.5000	23.56
1023.0000	23.56
1023.5000	23.56
1024.0000	23.56
1024.5000	23.55
1025.0000	23.56
1025.5000	23.55
1026.0000	23.55
1026.5000	23.55
1027.0000	23.55
1027.5000	23.55
1028.0000	23.55
1028.5000	23.53
1029.0000	23.53
1029.5000	23.53
1030.0000	23.53
1030.5000	23.52
1031.0000	23.52
1031.5000	23.52
1032.0000	23.53
1032.5000	23.53
1033.0000	23.53
1033.5000	23.52
1034.0000	23.52
1034.5000	23.52
1035.0000	23.52
1035.5000	23.52
1036.0000	23.52
1036.5000	23.52
1037.0000	23.53
1037.5000	23.52
1038.0000	23.53
1038.5000	23.53
1039.0000	23.53
1039.5000	23.53
1040.0000	23.54
1040.5000	23.55
1041.0000	23.55
1041.5000	23.56
1042.0000	23.55
1042.5000	23.56
1043.0000	23.56
1043.5000	23.57
1044.0000	23.57
1044.5000	23.57
1045.0000	23.58
1045.5000	23.57
1046.0000	23.56
1046.5000	23.56
1047.0000	23.55
1047.5000	23.54
1048.0000	23.54
1048.5000	23.53
1049.0000	23.53
1049.5000	23.52
1050.0000	23.52
1050.5000	23.53
1051.0000	23.53
1051.5000	23.53
1052.0000	23.53
1052.5000	23.54
1053.0000	23.54
1053.5000	23.54
1054.0000	23.53
1054.5000	23.53
1055.0000	23.54
1055.5000	23.53
1056.0000	23.52
1056.5000	23.52
1057.0000	23.51
1057.5000	23.51
1058.0000	23.50
1058.5000	23.49
1059.0000	23.49
1059.5000	23.47
1060.0000	23.46
1060.5000	23.44
1061.0000	23.45
1061.5000	23.44
1062.0000	23.43
1062.5000	23.44
1063.0000	23.43
1063.5000	23.44
1064.0000	23.44
1064.5000	23.44
1065.0000	23.45
1065.5000	23.46
1066.0000	23.46
1066.5000	23.47
1067.0000	23.46
1067.5000	23.47
1068.0000	23.47
1068.5000	23.46
1069.0000	23.47
1069.5000	23.47
1070.0000	23.47
1070.5000	23.47
1071.0000	23.47
1071.5000	23.47
1072.0000	23.47
1072.5000	23.48
1073.0000	23.48
1073.5000	23.49
1074.0000	23.49
1074.5000	23.50
1075.0000	23.50
1075.5000	23.49
1076.0000	23.50
1076.5000	23.50
1077.0000	23.50
1077.5000	23.51
1078.0000	23.50
1078.5000	23.50
1079.0000	23.50
1079.5000	23.51
1080.0000	23.50
1080.5000	23.50
1081.0000	23.50
1081.5000	23.49
1082.0000	23.49
1082.5000	23.48
1083.0000	23.48
1083.5000	23.48
1084.0000	23.48
1084.5000	23.48
1085.0000	23.49
1085.5000	23.48
1086.0000	23.48
1086.5000	23.48
1087.0000	23.48
1087.5000	23.49
1088.0000	23.50
1088.5000	23.49
1089.0000	23.48
1089.5000	23.49
1090.0000	23.49
1090.5000	23.49
1091.0000	23.50
1091.5000	23.50
1092.0000	23.50
1092.5000	23.49
1093.0000	23.50
1093.5000	23.49
1094.0000	23.49
1094.5000	23.47
1095.0000	23.46
1095.5000	23.45
1096.0000	23.45
1096.5000	23.45
1097.0000	23.44
1097.5000	23.44
1098.0000	23.44
1098.5000	23.44
1099.0000	23.44
1099.5000	23.44
1100.0000	23.44
1100.5000	23.44
1101.0000	23.44
1101.5000	23.43
1102.0000	23.43
1102.5000	23.42
1103.0000	23.41
1103.5000	23.42
1104.0000	23.43
1104.5000	23.43
1105.0000	23.43
1105.5000	23.42
1106.0000	23.43
1106.5000	23.43
1107.0000	23.43
1107.5000	23.43
1108.0000	23.43
1108.5000	23.43
1109.0000	23.43
1109.5000	23.42
1110.0000	23.41
1110.5000	23.40
1111.0000	23.40
1111.5000	23.39
1112.0000	23.39
1112.5000	23.39
1113.0000	23.38
1113.5000	23.37
1114.0000	23.36
1114.5000	23.37
1115.0000	23.36
1115.5000	23.36
1116.0000	23.35
1116.5000	23.36
1117.0000	23.37
1117.5000	23.38
1118.0000	23.39
1118.5000	23.38
1119.0000	23.38
1119.5000	23.38
1120.0000	23.38
1120.5000	23.39
1121.0000	23.38
1121.5000	23.37
1122.0000	23.37
1122.5000	23.38
1123.0000	23.37
1123.5000	23.38
1124.0000	23.38
1124.5000	23.38
1125.0000	23.38
1125.5000	23.38
1126.0000	23.36
1126.5000	23.34
1127.0000	23.33
1127.5000	23.34
1128.0000	23.34
1128.5000	23.35
1129.0000	23.34
1129.5000	23.33
1130.0000	23.33
1130.5000	23.33
1131.0000	23.33
1131.5000	23.31
1132.0000	23.32
1132.5000	23.31
1133.0000	23.32
1133.5000	23.31
1134.0000	23.30
1134.5000	23.30
1135.0000	23.31
1135.5000	23.31
1136.0000	23.31
