溫度8，執行#1
時間 ( 秒 )	溫度8 ( °C )
0.0000	24.63
0.5000	24.64
1.0000	24.63
1.5000	24.63
2.0000	24.63
2.5000	24.63
3.0000	24.62
3.5000	24.62
4.0000	24.62
4.5000	24.62
5.0000	24.62
5.5000	24.61
6.0000	24.61
6.5000	24.61
7.0000	24.61
7.5000	24.61
8.0000	24.60
8.5000	24.60
9.0000	24.60
9.5000	24.60
10.0000	24.59
10.5000	24.59
11.0000	24.59
11.5000	24.59
12.0000	24.58
12.5000	24.59
13.0000	24.58
13.5000	24.58
14.0000	24.58
14.5000	24.58
15.0000	24.58
15.5000	24.58
16.0000	24.57
16.5000	24.57
17.0000	24.58
17.5000	24.58
18.0000	24.58
18.5000	24.57
19.0000	24.58
19.5000	24.57
20.0000	24.56
20.5000	24.57
21.0000	24.56
21.5000	24.56
22.0000	24.56
22.5000	24.56
23.0000	24.56
23.5000	24.56
24.0000	24.55
24.5000	24.56
25.0000	24.55
25.5000	24.55
26.0000	24.54
26.5000	24.55
27.0000	24.54
27.5000	24.55
28.0000	24.55
28.5000	24.55
29.0000	24.55
29.5000	24.54
30.0000	24.54
30.5000	24.54
31.0000	24.54
31.5000	24.54
32.0000	24.54
32.5000	24.54
33.0000	24.54
33.5000	24.54
34.0000	24.54
34.5000	24.54
35.0000	24.53
35.5000	24.53
36.0000	24.53
36.5000	24.53
37.0000	24.53
37.5000	24.53
38.0000	24.53
38.5000	24.54
39.0000	24.53
39.5000	24.53
40.0000	24.53
40.5000	24.53
41.0000	24.53
41.5000	24.54
42.0000	24.53
42.5000	24.53
43.0000	24.54
43.5000	24.53
44.0000	24.53
44.5000	24.54
45.0000	24.53
45.5000	24.54
46.0000	24.53
46.5000	24.53
47.0000	24.53
47.5000	24.54
48.0000	24.54
48.5000	24.54
49.0000	24.54
49.5000	24.54
50.0000	24.55
50.5000	24.55
51.0000	24.55
51.5000	24.56
52.0000	24.56
52.5000	24.57
53.0000	24.58
53.5000	24.57
54.0000	24.58
54.5000	24.57
55.0000	24.58
55.5000	24.58
56.0000	24.58
56.5000	24.58
57.0000	24.58
57.5000	24.59
58.0000	24.58
58.5000	24.59
59.0000	24.59
59.5000	24.60
60.0000	24.60
60.5000	24.60
61.0000	24.60
61.5000	24.60
62.0000	24.60
62.5000	24.58
63.0000	24.59
63.5000	24.58
64.0000	24.58
64.5000	24.60
65.0000	24.61
65.5000	24.62
66.0000	24.62
66.5000	24.61
67.0000	24.61
67.5000	24.61
68.0000	24.59
68.5000	24.59
69.0000	24.59
69.5000	24.59
70.0000	24.60
70.5000	24.59
71.0000	24.59
71.5000	24.59
72.0000	24.59
72.5000	24.59
73.0000	24.60
73.5000	24.60
74.0000	24.61
74.5000	24.61
75.0000	24.61
75.5000	24.62
76.0000	24.63
76.5000	24.63
77.0000	24.62
77.5000	24.63
78.0000	24.64
78.5000	24.63
79.0000	24.63
79.5000	24.65
80.0000	24.64
80.5000	24.64
81.0000	24.64
81.5000	24.65
82.0000	24.65
82.5000	24.65
83.0000	24.66
83.5000	24.65
84.0000	24.65
84.5000	24.65
85.0000	24.66
85.5000	24.65
86.0000	24.65
86.5000	24.66
87.0000	24.65
87.5000	24.66
88.0000	24.67
88.5000	24.67
89.0000	24.66
89.5000	24.66
90.0000	24.66
90.5000	24.66
91.0000	24.66
91.5000	24.66
92.0000	24.67
92.5000	24.67
93.0000	24.67
93.5000	24.67
94.0000	24.67
94.5000	24.67
95.0000	24.67
95.5000	24.68
96.0000	24.69
96.5000	24.69
97.0000	24.68
97.5000	24.68
98.0000	24.69
98.5000	24.69
99.0000	24.69
99.5000	24.69
100.0000	24.69
100.5000	24.70
101.0000	24.70
101.5000	24.70
102.0000	24.69
102.5000	24.70
103.0000	24.70
103.5000	24.70
104.0000	24.71
104.5000	24.71
105.0000	24.70
105.5000	24.70
106.0000	24.70
106.5000	24.70
107.0000	24.70
107.5000	24.70
108.0000	24.70
108.5000	24.71
109.0000	24.71
109.5000	24.71
110.0000	24.71
110.5000	24.71
111.0000	24.71
111.5000	24.72
112.0000	24.71
112.5000	24.72
113.0000	24.72
113.5000	24.72
114.0000	24.73
114.5000	24.73
115.0000	24.73
115.5000	24.73
116.0000	24.74
116.5000	24.74
117.0000	24.74
117.5000	24.74
118.0000	24.75
118.5000	24.75
119.0000	24.76
119.5000	24.75
120.0000	24.76
120.5000	24.76
121.0000	24.76
121.5000	24.76
122.0000	24.76
122.5000	24.77
123.0000	24.77
123.5000	24.77
124.0000	24.77
124.5000	24.77
125.0000	24.77
125.5000	24.77
126.0000	24.77
126.5000	24.78
127.0000	24.78
127.5000	24.78
128.0000	24.79
128.5000	24.79
129.0000	24.79
129.5000	24.80
130.0000	24.80
130.5000	24.81
131.0000	24.81
131.5000	24.81
132.0000	24.82
132.5000	24.82
133.0000	24.82
133.5000	24.82
134.0000	24.83
134.5000	24.83
135.0000	24.83
135.5000	24.83
136.0000	24.83
136.5000	24.83
137.0000	24.83
137.5000	24.85
138.0000	24.85
138.5000	24.85
139.0000	24.85
139.5000	24.86
140.0000	24.87
140.5000	24.86
141.0000	24.86
141.5000	24.88
142.0000	24.87
142.5000	24.88
143.0000	24.88
143.5000	24.88
144.0000	24.88
144.5000	24.89
145.0000	24.90
145.5000	24.90
146.0000	24.90
146.5000	24.91
147.0000	24.91
147.5000	24.92
148.0000	24.92
148.5000	24.92
149.0000	24.93
149.5000	24.93
150.0000	24.94
150.5000	24.94
151.0000	24.93
151.5000	24.94
152.0000	24.94
152.5000	24.94
153.0000	24.93
153.5000	24.93
154.0000	24.93
154.5000	24.93
155.0000	24.94
155.5000	24.94
156.0000	24.94
156.5000	24.95
157.0000	24.95
157.5000	24.96
158.0000	24.95
158.5000	24.96
159.0000	24.96
159.5000	24.96
160.0000	24.96
160.5000	24.97
161.0000	24.97
161.5000	24.98
162.0000	24.98
162.5000	24.98
163.0000	24.98
163.5000	24.99
164.0000	24.98
164.5000	25.00
165.0000	25.00
165.5000	25.01
166.0000	25.01
166.5000	25.02
167.0000	25.02
167.5000	25.03
168.0000	25.03
168.5000	25.03
169.0000	25.03
169.5000	25.05
170.0000	25.04
170.5000	25.05
171.0000	25.05
171.5000	25.06
172.0000	25.06
172.5000	25.06
173.0000	25.07
173.5000	25.07
174.0000	25.07
174.5000	25.07
175.0000	25.07
175.5000	25.06
176.0000	25.07
176.5000	25.08
177.0000	25.09
177.5000	25.09
178.0000	25.09
178.5000	25.09
179.0000	25.09
179.5000	25.10
180.0000	25.10
180.5000	25.10
181.0000	25.11
181.5000	25.11
182.0000	25.11
182.5000	25.11
183.0000	25.11
183.5000	25.12
184.0000	25.12
184.5000	25.12
185.0000	25.12
185.5000	25.13
186.0000	25.13
186.5000	25.14
187.0000	25.14
187.5000	25.14
188.0000	25.14
188.5000	25.14
189.0000	25.15
189.5000	25.16
190.0000	25.15
190.5000	25.15
191.0000	25.16
191.5000	25.17
192.0000	25.16
192.5000	25.16
193.0000	25.15
193.5000	25.16
194.0000	25.17
194.5000	25.16
195.0000	25.16
195.5000	25.18
196.0000	25.17
196.5000	25.17
197.0000	25.17
197.5000	25.17
198.0000	25.17
198.5000	25.18
199.0000	25.18
199.5000	25.18
200.0000	25.19
200.5000	25.19
201.0000	25.19
201.5000	25.18
202.0000	25.19
202.5000	25.19
203.0000	25.19
203.5000	25.20
204.0000	25.19
204.5000	25.19
205.0000	25.20
205.5000	25.20
206.0000	25.20
206.5000	25.20
207.0000	25.21
207.5000	25.20
208.0000	25.21
208.5000	25.21
209.0000	25.22
209.5000	25.22
210.0000	25.21
210.5000	25.21
211.0000	25.21
211.5000	25.22
212.0000	25.21
212.5000	25.22
213.0000	25.22
213.5000	25.22
214.0000	25.22
214.5000	25.22
215.0000	25.22
215.5000	25.23
216.0000	25.22
216.5000	25.23
217.0000	25.23
217.5000	25.23
218.0000	25.24
218.5000	25.23
219.0000	25.23
219.5000	25.23
220.0000	25.23
220.5000	25.23
221.0000	25.23
221.5000	25.23
222.0000	25.23
222.5000	25.23
223.0000	25.23
223.5000	25.23
224.0000	25.22
224.5000	25.23
225.0000	25.23
225.5000	25.22
226.0000	25.22
226.5000	25.22
227.0000	25.22
227.5000	25.22
228.0000	25.22
228.5000	25.22
229.0000	25.21
229.5000	25.21
230.0000	25.21
230.5000	25.21
231.0000	25.22
231.5000	25.21
232.0000	25.21
232.5000	25.22
233.0000	25.22
233.5000	25.21
234.0000	25.21
234.5000	25.22
235.0000	25.22
235.5000	25.22
236.0000	25.22
236.5000	25.22
237.0000	25.21
237.5000	25.22
238.0000	25.22
238.5000	25.22
239.0000	25.22
239.5000	25.22
240.0000	25.23
240.5000	25.22
241.0000	25.21
241.5000	25.21
242.0000	25.22
242.5000	25.22
243.0000	25.22
243.5000	25.21
244.0000	25.21
244.5000	25.22
245.0000	25.22
245.5000	25.22
246.0000	25.22
246.5000	25.21
247.0000	25.21
247.5000	25.22
248.0000	25.22
248.5000	25.21
249.0000	25.21
249.5000	25.21
250.0000	25.21
250.5000	25.21
251.0000	25.20
251.5000	25.21
252.0000	25.22
252.5000	25.22
253.0000	25.22
253.5000	25.21
254.0000	25.21
254.5000	25.21
255.0000	25.21
255.5000	25.21
256.0000	25.21
256.5000	25.21
257.0000	25.20
257.5000	25.20
258.0000	25.20
258.5000	25.20
259.0000	25.21
259.5000	25.20
260.0000	25.20
260.5000	25.20
261.0000	25.20
261.5000	25.20
262.0000	25.20
262.5000	25.20
263.0000	25.20
263.5000	25.20
264.0000	25.19
264.5000	25.19
265.0000	25.19
265.5000	25.19
266.0000	25.19
266.5000	25.19
267.0000	25.19
267.5000	25.19
268.0000	25.18
268.5000	25.19
269.0000	25.18
269.5000	25.19
270.0000	25.18
270.5000	25.18
271.0000	25.17
271.5000	25.18
272.0000	25.17
272.5000	25.17
273.0000	25.17
273.5000	25.17
274.0000	25.17
274.5000	25.17
275.0000	25.17
275.5000	25.17
276.0000	25.16
276.5000	25.16
277.0000	25.16
277.5000	25.16
278.0000	25.16
278.5000	25.16
279.0000	25.16
279.5000	25.16
280.0000	25.16
280.5000	25.16
281.0000	25.16
281.5000	25.16
282.0000	25.15
282.5000	25.15
283.0000	25.15
283.5000	25.15
284.0000	25.14
284.5000	25.15
285.0000	25.15
285.5000	25.14
286.0000	25.15
286.5000	25.14
287.0000	25.15
287.5000	25.14
288.0000	25.14
288.5000	25.14
289.0000	25.14
289.5000	25.14
290.0000	25.14
290.5000	25.14
291.0000	25.14
291.5000	25.14
292.0000	25.14
292.5000	25.14
293.0000	25.14
293.5000	25.14
294.0000	25.14
294.5000	25.14
295.0000	25.14
295.5000	25.13
296.0000	25.14
296.5000	25.14
297.0000	25.13
297.5000	25.13
298.0000	25.13
298.5000	25.13
299.0000	25.13
299.5000	25.12
300.0000	25.12
300.5000	25.13
301.0000	25.13
301.5000	25.12
302.0000	25.12
302.5000	25.12
303.0000	25.12
303.5000	25.12
304.0000	25.09
304.5000	25.09
305.0000	25.09
305.5000	25.09
306.0000	25.08
306.5000	25.09
307.0000	25.08
307.5000	25.09
308.0000	25.08
308.5000	25.08
309.0000	25.08
309.5000	25.08
310.0000	25.08
310.5000	25.07
311.0000	25.08
311.5000	25.07
312.0000	25.08
312.5000	25.08
313.0000	25.07
313.5000	25.07
314.0000	25.07
314.5000	25.07
315.0000	25.07
315.5000	25.07
316.0000	25.07
316.5000	25.07
317.0000	25.07
317.5000	25.07
318.0000	25.07
318.5000	25.07
319.0000	25.07
319.5000	25.06
320.0000	25.07
320.5000	25.07
321.0000	25.06
321.5000	25.06
322.0000	25.06
322.5000	25.07
323.0000	25.06
323.5000	25.06
324.0000	25.06
324.5000	25.06
325.0000	25.06
325.5000	25.06
326.0000	25.05
326.5000	25.06
327.0000	25.05
327.5000	25.05
328.0000	25.05
328.5000	25.05
329.0000	25.05
329.5000	25.05
330.0000	25.04
330.5000	25.04
331.0000	25.04
331.5000	25.04
332.0000	25.04
332.5000	25.04
333.0000	25.03
333.5000	25.03
334.0000	25.03
334.5000	25.04
335.0000	25.02
335.5000	25.03
336.0000	25.03
336.5000	25.04
337.0000	25.08
337.5000	25.06
338.0000	25.06
338.5000	25.07
339.0000	25.06
339.5000	25.02
340.0000	25.02
340.5000	25.02
341.0000	25.01
341.5000	25.02
342.0000	25.02
342.5000	25.01
343.0000	25.01
343.5000	25.01
344.0000	25.01
344.5000	25.01
345.0000	25.01
345.5000	25.01
346.0000	25.01
346.5000	25.01
347.0000	25.01
347.5000	25.00
348.0000	25.00
348.5000	25.00
349.0000	25.00
349.5000	25.00
350.0000	24.99
350.5000	25.00
351.0000	24.99
351.5000	24.99
352.0000	24.99
352.5000	24.99
353.0000	24.99
353.5000	24.99
354.0000	24.98
354.5000	24.98
355.0000	24.98
355.5000	24.99
356.0000	24.98
356.5000	24.98
357.0000	24.98
357.5000	24.98
358.0000	24.98
358.5000	24.98
359.0000	24.97
359.5000	24.98
360.0000	24.98
360.5000	24.98
361.0000	24.97
361.5000	24.97
362.0000	24.97
362.5000	24.98
363.0000	24.97
363.5000	24.97
364.0000	24.98
364.5000	24.97
365.0000	24.97
365.5000	24.97
366.0000	24.97
366.5000	24.97
367.0000	24.97
367.5000	24.97
368.0000	24.96
368.5000	24.96
369.0000	24.96
369.5000	24.96
370.0000	24.96
370.5000	24.96
371.0000	24.96
371.5000	24.96
372.0000	24.96
372.5000	24.96
373.0000	24.96
373.5000	24.96
374.0000	24.95
374.5000	24.95
375.0000	24.95
375.5000	24.95
376.0000	24.95
376.5000	24.95
377.0000	24.95
377.5000	24.95
378.0000	24.95
378.5000	24.95
379.0000	24.95
379.5000	24.95
380.0000	24.96
380.5000	24.96
381.0000	24.95
381.5000	24.95
382.0000	24.95
382.5000	24.96
383.0000	24.95
383.5000	24.95
384.0000	24.95
384.5000	24.94
385.0000	24.94
385.5000	24.94
386.0000	24.94
386.5000	24.94
387.0000	24.94
387.5000	24.94
388.0000	24.93
388.5000	24.94
389.0000	24.94
389.5000	24.94
390.0000	24.93
390.5000	24.93
391.0000	24.94
391.5000	24.93
392.0000	24.93
392.5000	24.93
393.0000	24.93
393.5000	24.93
394.0000	24.93
394.5000	24.93
395.0000	24.93
395.5000	24.93
396.0000	24.92
396.5000	24.92
397.0000	24.92
397.5000	24.92
398.0000	24.92
398.5000	24.92
399.0000	24.92
399.5000	24.92
400.0000	24.91
400.5000	24.91
401.0000	24.92
401.5000	24.92
402.0000	24.92
402.5000	24.91
403.0000	24.92
403.5000	24.92
404.0000	24.92
404.5000	24.91
405.0000	24.91
405.5000	24.91
406.0000	24.92
406.5000	24.91
407.0000	24.92
407.5000	24.93
408.0000	24.92
408.5000	24.92
409.0000	24.92
409.5000	24.91
410.0000	24.92
410.5000	24.91
411.0000	24.93
411.5000	24.92
412.0000	24.93
412.5000	24.93
413.0000	24.93
413.5000	24.93
414.0000	24.92
414.5000	24.92
415.0000	24.92
415.5000	24.93
416.0000	24.92
416.5000	24.92
417.0000	24.92
417.5000	24.92
418.0000	24.91
418.5000	24.91
419.0000	24.91
419.5000	24.91
420.0000	24.91
420.5000	24.91
421.0000	24.91
421.5000	24.91
422.0000	24.91
422.5000	24.91
423.0000	24.91
423.5000	24.91
424.0000	24.91
424.5000	24.91
425.0000	24.90
425.5000	24.90
426.0000	24.89
426.5000	24.89
427.0000	24.89
427.5000	24.90
428.0000	24.90
428.5000	24.90
429.0000	24.88
429.5000	24.89
430.0000	24.89
430.5000	24.89
431.0000	24.88
431.5000	24.89
432.0000	24.88
432.5000	24.89
433.0000	24.88
433.5000	24.88
434.0000	24.89
434.5000	24.88
435.0000	24.88
435.5000	24.88
436.0000	24.87
436.5000	24.87
437.0000	24.87
437.5000	24.87
438.0000	24.86
438.5000	24.87
439.0000	24.86
439.5000	24.86
440.0000	24.85
440.5000	24.86
441.0000	24.86
441.5000	24.86
442.0000	24.87
442.5000	24.82
443.0000	24.82
443.5000	24.82
444.0000	24.82
444.5000	24.82
445.0000	24.82
445.5000	24.82
446.0000	24.81
446.5000	24.81
447.0000	24.81
447.5000	24.81
448.0000	24.81
448.5000	24.81
449.0000	24.81
449.5000	24.81
450.0000	24.80
450.5000	24.80
451.0000	24.80
451.5000	24.80
452.0000	24.80
452.5000	24.80
453.0000	24.80
453.5000	24.80
454.0000	24.80
454.5000	24.80
455.0000	24.79
455.5000	24.79
456.0000	24.80
456.5000	24.79
457.0000	24.79
457.5000	24.79
458.0000	24.79
458.5000	24.79
459.0000	24.79
459.5000	24.79
460.0000	24.78
460.5000	24.78
461.0000	24.78
461.5000	24.78
462.0000	24.78
462.5000	24.78
463.0000	24.78
463.5000	24.78
464.0000	24.77
464.5000	24.78
465.0000	24.77
465.5000	24.78
466.0000	24.77
466.5000	24.77
467.0000	24.77
467.5000	24.77
468.0000	24.77
468.5000	24.77
469.0000	24.77
469.5000	24.76
470.0000	24.76
470.5000	24.76
471.0000	24.77
471.5000	24.77
472.0000	24.76
472.5000	24.77
473.0000	24.76
473.5000	24.76
474.0000	24.76
474.5000	24.76
475.0000	24.76
475.5000	24.76
476.0000	24.76
476.5000	24.76
477.0000	24.75
477.5000	24.75
478.0000	24.76
478.5000	24.75
479.0000	24.75
479.5000	24.75
480.0000	24.75
480.5000	24.75
481.0000	24.74
481.5000	24.75
482.0000	24.74
482.5000	24.74
483.0000	24.74
483.5000	24.74
484.0000	24.74
484.5000	24.73
485.0000	24.73
485.5000	24.73
486.0000	24.73
486.5000	24.73
487.0000	24.73
487.5000	24.73
488.0000	24.73
488.5000	24.73
489.0000	24.72
489.5000	24.72
490.0000	24.72
490.5000	24.72
491.0000	24.71
491.5000	24.72
492.0000	24.71
492.5000	24.71
493.0000	24.71
493.5000	24.71
494.0000	24.71
494.5000	24.70
495.0000	24.70
495.5000	24.71
496.0000	24.70
496.5000	24.69
497.0000	24.69
497.5000	24.69
498.0000	24.69
498.5000	24.69
499.0000	24.69
499.5000	24.69
500.0000	24.68
500.5000	24.68
501.0000	24.68
501.5000	24.68
502.0000	24.68
502.5000	24.68
503.0000	24.67
503.5000	24.68
504.0000	24.67
504.5000	24.67
505.0000	24.67
505.5000	24.66
506.0000	24.67
506.5000	24.66
507.0000	24.66
507.5000	24.66
508.0000	24.66
508.5000	24.66
509.0000	24.66
509.5000	24.66
510.0000	24.65
510.5000	24.65
511.0000	24.65
511.5000	24.64
512.0000	24.64
512.5000	24.64
513.0000	24.63
513.5000	24.64
514.0000	24.64
514.5000	24.63
515.0000	24.63
515.5000	24.63
516.0000	24.63
516.5000	24.63
517.0000	24.63
517.5000	24.62
518.0000	24.62
518.5000	24.62
519.0000	24.62
519.5000	24.62
520.0000	24.61
520.5000	24.61
521.0000	24.60
521.5000	24.61
522.0000	24.60
522.5000	24.60
523.0000	24.60
523.5000	24.60
524.0000	24.59
524.5000	24.59
525.0000	24.59
525.5000	24.59
526.0000	24.58
526.5000	24.58
527.0000	24.58
527.5000	24.59
528.0000	24.58
528.5000	24.58
529.0000	24.57
529.5000	24.57
530.0000	24.57
530.5000	24.57
531.0000	24.56
531.5000	24.56
532.0000	24.56
532.5000	24.55
533.0000	24.55
533.5000	24.55
534.0000	24.55
534.5000	24.55
535.0000	24.54
535.5000	24.54
536.0000	24.53
536.5000	24.53
537.0000	24.53
537.5000	24.53
538.0000	24.52
538.5000	24.51
539.0000	24.51
539.5000	24.51
540.0000	24.51
540.5000	24.50
541.0000	24.50
541.5000	24.50
542.0000	24.50
542.5000	24.49
543.0000	24.48
543.5000	24.49
544.0000	24.48
544.5000	24.47
545.0000	24.47
545.5000	24.46
546.0000	24.46
546.5000	24.46
547.0000	24.45
547.5000	24.44
548.0000	24.44
548.5000	24.43
549.0000	24.42
549.5000	24.41
550.0000	24.40
550.5000	24.39
551.0000	24.39
551.5000	24.37
552.0000	24.36
552.5000	24.35
553.0000	24.35
553.5000	24.33
554.0000	24.32
554.5000	24.31
555.0000	24.29
555.5000	24.27
556.0000	24.27
556.5000	24.26
557.0000	24.26
557.5000	24.25
558.0000	24.24
558.5000	24.24
559.0000	24.23
559.5000	24.23
560.0000	24.22
560.5000	24.21
561.0000	24.21
561.5000	24.20
562.0000	24.20
562.5000	24.18
563.0000	24.16
563.5000	24.16
564.0000	24.15
564.5000	24.15
565.0000	24.14
565.5000	24.14
566.0000	24.13
566.5000	24.12
567.0000	24.12
567.5000	24.11
568.0000	24.10
568.5000	24.10
569.0000	24.08
569.5000	24.08
570.0000	24.06
570.5000	24.06
571.0000	24.05
571.5000	24.04
572.0000	24.01
572.5000	23.97
573.0000	23.95
573.5000	23.90
574.0000	23.81
574.5000	23.65
575.0000	23.07
575.5000	21.02
576.0000	21.46
576.5000	22.64
577.0000	22.58
577.5000	22.44
578.0000	24.42
578.5000	24.43
579.0000	24.43
579.5000	24.43
580.0000	24.43
580.5000	24.43
581.0000	24.42
581.5000	24.42
582.0000	24.41
582.5000	24.42
583.0000	24.41
583.5000	24.41
584.0000	24.41
584.5000	24.41
585.0000	24.40
585.5000	24.40
586.0000	24.40
586.5000	24.40
587.0000	24.40
587.5000	24.40
588.0000	24.40
588.5000	24.40
589.0000	24.39
589.5000	24.39
590.0000	24.39
590.5000	24.39
591.0000	24.42
591.5000	24.41
592.0000	24.38
592.5000	24.38
593.0000	24.38
593.5000	24.38
594.0000	24.37
594.5000	24.37
595.0000	24.37
595.5000	24.37
596.0000	24.37
596.5000	24.36
597.0000	24.37
597.5000	24.36
598.0000	24.36
598.5000	24.36
599.0000	24.35
599.5000	24.36
600.0000	24.36
600.5000	24.36
601.0000	24.35
601.5000	24.35
602.0000	24.35
602.5000	24.35
603.0000	24.35
603.5000	24.35
604.0000	24.35
604.5000	24.34
605.0000	24.34
605.5000	24.34
606.0000	24.34
606.5000	24.33
607.0000	24.33
607.5000	24.33
608.0000	24.32
608.5000	24.32
609.0000	24.32
609.5000	24.32
610.0000	24.31
610.5000	24.31
611.0000	24.31
611.5000	24.31
612.0000	24.31
612.5000	24.31
613.0000	24.31
613.5000	24.30
614.0000	24.31
614.5000	24.33
615.0000	24.35
615.5000	24.32
616.0000	24.29
616.5000	24.30
617.0000	24.29
617.5000	24.29
618.0000	24.29
618.5000	24.29
619.0000	24.29
619.5000	24.28
620.0000	24.28
620.5000	24.28
621.0000	24.28
621.5000	24.28
622.0000	24.28
622.5000	24.28
623.0000	24.27
623.5000	24.28
624.0000	24.28
624.5000	24.32
625.0000	24.31
625.5000	24.30
626.0000	24.29
626.5000	24.30
627.0000	24.29
627.5000	24.29
628.0000	24.29
628.5000	24.24
629.0000	24.23
629.5000	24.23
630.0000	24.23
630.5000	24.23
631.0000	24.22
631.5000	24.23
632.0000	24.23
632.5000	24.23
633.0000	24.23
633.5000	24.22
634.0000	24.22
634.5000	24.22
635.0000	24.22
635.5000	24.22
636.0000	24.21
636.5000	24.22
637.0000	24.21
637.5000	24.22
638.0000	24.21
638.5000	24.21
639.0000	24.21
639.5000	24.21
640.0000	24.21
640.5000	24.21
641.0000	24.21
641.5000	24.20
642.0000	24.21
642.5000	24.21
643.0000	24.21
643.5000	24.20
644.0000	24.20
644.5000	24.20
645.0000	24.20
645.5000	24.20
646.0000	24.20
646.5000	24.19
647.0000	24.20
647.5000	24.19
648.0000	24.19
648.5000	24.19
649.0000	24.19
649.5000	24.20
650.0000	24.19
650.5000	24.19
651.0000	24.18
651.5000	24.18
652.0000	24.18
652.5000	24.18
653.0000	24.18
653.5000	24.18
654.0000	24.17
654.5000	24.17
655.0000	24.18
655.5000	24.17
656.0000	24.17
656.5000	24.18
657.0000	24.18
657.5000	24.17
658.0000	24.18
658.5000	24.17
659.0000	24.18
659.5000	24.17
660.0000	24.17
660.5000	24.16
661.0000	24.16
661.5000	24.16
662.0000	24.16
662.5000	24.16
663.0000	24.16
663.5000	24.16
664.0000	24.16
664.5000	24.16
665.0000	24.16
665.5000	24.15
666.0000	24.16
666.5000	24.16
667.0000	24.15
667.5000	24.15
668.0000	24.15
668.5000	24.15
669.0000	24.15
669.5000	24.15
670.0000	24.15
670.5000	24.15
671.0000	24.14
671.5000	24.15
672.0000	24.14
672.5000	24.15
673.0000	24.15
673.5000	24.15
674.0000	24.14
674.5000	24.15
675.0000	24.15
675.5000	24.15
676.0000	24.15
676.5000	24.14
677.0000	24.14
677.5000	24.14
678.0000	24.14
678.5000	24.14
679.0000	24.14
679.5000	24.13
680.0000	24.14
680.5000	24.13
681.0000	24.13
681.5000	24.14
682.0000	24.14
682.5000	24.14
683.0000	24.13
683.5000	24.13
684.0000	24.13
684.5000	24.13
685.0000	24.12
685.5000	24.13
686.0000	24.13
686.5000	24.12
687.0000	24.12
687.5000	24.12
688.0000	24.12
688.5000	24.12
689.0000	24.12
689.5000	24.12
690.0000	24.12
690.5000	24.12
691.0000	24.12
691.5000	24.12
692.0000	24.16
692.5000	24.16
693.0000	24.16
693.5000	24.11
694.0000	24.11
694.5000	24.11
695.0000	24.12
695.5000	24.11
696.0000	24.11
696.5000	24.11
697.0000	24.11
697.5000	24.11
698.0000	24.11
698.5000	24.11
699.0000	24.11
699.5000	24.10
700.0000	24.10
700.5000	24.10
701.0000	24.10
701.5000	24.10
702.0000	24.11
702.5000	24.10
703.0000	24.10
703.5000	24.10
704.0000	24.10
704.5000	24.10
705.0000	24.09
705.5000	24.09
706.0000	24.10
706.5000	24.10
707.0000	24.09
707.5000	24.10
708.0000	24.10
708.5000	24.10
709.0000	24.09
709.5000	24.10
710.0000	24.10
710.5000	24.10
711.0000	24.09
711.5000	24.10
712.0000	24.10
712.5000	24.09
713.0000	24.09
713.5000	24.09
714.0000	24.09
714.5000	24.09
715.0000	24.09
715.5000	24.09
716.0000	24.09
716.5000	24.09
717.0000	24.09
717.5000	24.09
718.0000	24.09
718.5000	24.08
719.0000	24.08
719.5000	24.08
720.0000	24.08
720.5000	24.07
721.0000	24.08
721.5000	24.07
722.0000	24.08
722.5000	24.07
723.0000	24.07
723.5000	24.07
724.0000	24.07
724.5000	24.07
725.0000	24.07
725.5000	24.07
726.0000	24.07
726.5000	24.07
727.0000	24.07
727.5000	24.07
728.0000	24.07
728.5000	24.07
729.0000	24.07
729.5000	24.07
730.0000	24.06
730.5000	24.07
731.0000	24.07
731.5000	24.06
732.0000	24.06
732.5000	24.06
733.0000	24.06
733.5000	24.06
734.0000	24.06
734.5000	24.06
735.0000	24.06
735.5000	24.06
736.0000	24.06
736.5000	24.06
737.0000	24.06
737.5000	24.06
738.0000	24.06
738.5000	24.06
739.0000	24.05
739.5000	24.06
740.0000	24.06
740.5000	24.06
741.0000	24.06
741.5000	24.06
742.0000	24.06
742.5000	24.07
743.0000	24.05
743.5000	24.06
744.0000	24.05
744.5000	24.05
745.0000	24.06
745.5000	24.05
746.0000	24.05
746.5000	24.05
747.0000	24.05
747.5000	24.05
748.0000	24.05
748.5000	24.04
749.0000	24.05
749.5000	24.04
750.0000	24.05
750.5000	24.05
751.0000	24.05
751.5000	24.05
752.0000	24.05
752.5000	24.05
753.0000	24.04
753.5000	24.05
754.0000	24.04
754.5000	24.04
755.0000	24.04
755.5000	24.04
756.0000	24.05
756.5000	24.04
757.0000	24.04
757.5000	24.04
758.0000	24.04
758.5000	24.04
759.0000	24.04
759.5000	24.04
760.0000	24.04
760.5000	24.03
761.0000	24.03
761.5000	24.03
762.0000	24.04
762.5000	24.03
763.0000	24.04
763.5000	24.03
764.0000	24.03
764.5000	24.03
765.0000	24.03
765.5000	24.03
766.0000	24.03
766.5000	24.03
767.0000	24.02
767.5000	24.03
768.0000	24.03
768.5000	24.03
769.0000	24.02
769.5000	24.03
770.0000	24.03
770.5000	24.02
771.0000	24.02
771.5000	24.02
772.0000	24.03
772.5000	24.02
773.0000	24.02
773.5000	24.03
774.0000	24.03
774.5000	24.02
775.0000	24.02
775.5000	24.02
776.0000	24.02
776.5000	24.02
777.0000	24.02
777.5000	24.02
778.0000	24.02
778.5000	24.01
779.0000	24.02
779.5000	24.02
780.0000	24.02
780.5000	24.01
781.0000	24.01
781.5000	24.02
782.0000	24.01
782.5000	24.02
783.0000	24.02
783.5000	24.05
784.0000	24.05
784.5000	24.05
785.0000	24.04
785.5000	24.01
786.0000	24.01
786.5000	24.01
787.0000	24.01
787.5000	24.01
788.0000	24.01
788.5000	24.01
789.0000	24.04
789.5000	24.03
790.0000	24.04
790.5000	24.04
791.0000	24.04
791.5000	24.04
792.0000	24.03
792.5000	24.04
793.0000	24.04
793.5000	24.03
794.0000	24.03
794.5000	24.03
795.0000	24.04
795.5000	24.04
796.0000	24.03
796.5000	24.03
797.0000	24.03
797.5000	24.03
798.0000	24.03
798.5000	24.03
799.0000	24.03
799.5000	24.04
800.0000	24.03
800.5000	24.02
801.0000	24.02
801.5000	24.02
802.0000	24.03
802.5000	24.02
803.0000	24.03
803.5000	24.02
804.0000	24.02
804.5000	24.02
805.0000	24.02
805.5000	24.02
806.0000	24.02
806.5000	24.03
807.0000	24.02
807.5000	24.03
808.0000	24.02
808.5000	24.01
809.0000	24.02
809.5000	24.02
810.0000	24.02
810.5000	24.02
811.0000	24.03
811.5000	24.03
812.0000	23.96
812.5000	23.97
813.0000	23.97
813.5000	23.97
814.0000	23.98
814.5000	23.97
815.0000	23.98
815.5000	23.97
816.0000	23.97
816.5000	23.97
817.0000	23.98
817.5000	23.97
818.0000	23.98
818.5000	23.98
819.0000	23.98
819.5000	23.97
820.0000	23.98
820.5000	23.98
821.0000	23.98
821.5000	23.98
822.0000	23.98
822.5000	23.98
823.0000	23.98
823.5000	23.99
824.0000	23.98
824.5000	23.98
825.0000	23.98
825.5000	23.99
826.0000	23.98
826.5000	23.99
827.0000	23.97
827.5000	23.98
828.0000	23.98
828.5000	23.98
829.0000	23.99
829.5000	23.98
830.0000	23.98
830.5000	23.98
831.0000	23.98
831.5000	23.98
832.0000	23.98
832.5000	23.97
833.0000	23.98
833.5000	23.98
834.0000	23.97
834.5000	23.98
835.0000	23.97
835.5000	23.97
836.0000	23.97
836.5000	23.98
837.0000	23.98
837.5000	24.00
838.0000	24.00
838.5000	24.01
839.0000	23.97
839.5000	23.97
840.0000	24.00
840.5000	24.00
841.0000	24.00
841.5000	24.00
842.0000	24.00
842.5000	24.00
843.0000	24.00
843.5000	24.00
844.0000	24.00
844.5000	24.00
845.0000	24.00
845.5000	24.01
846.0000	24.00
846.5000	24.01
847.0000	24.00
847.5000	24.00
848.0000	24.00
848.5000	24.00
849.0000	24.00
849.5000	24.01
850.0000	24.00
850.5000	24.00
851.0000	24.00
851.5000	24.00
852.0000	23.99
852.5000	23.99
853.0000	23.99
853.5000	23.99
854.0000	23.99
854.5000	23.99
855.0000	23.99
855.5000	23.99
856.0000	23.99
856.5000	23.99
857.0000	23.98
857.5000	23.99
858.0000	23.98
858.5000	23.99
859.0000	23.99
859.5000	23.98
860.0000	23.98
860.5000	23.98
861.0000	23.98
861.5000	23.99
862.0000	23.98
862.5000	23.98
863.0000	23.98
863.5000	23.98
864.0000	23.98
864.5000	23.99
865.0000	24.00
865.5000	24.00
866.0000	24.00
866.5000	24.00
867.0000	24.00
867.5000	23.99
868.0000	24.00
868.5000	23.99
869.0000	23.99
869.5000	23.99
870.0000	24.01
870.5000	23.99
871.0000	23.99
871.5000	23.99
872.0000	24.00
872.5000	24.00
873.0000	24.00
873.5000	24.02
874.0000	24.02
874.5000	24.02
875.0000	24.02
875.5000	24.02
876.0000	24.01
876.5000	24.01
877.0000	24.02
877.5000	24.02
878.0000	24.01
878.5000	24.01
879.0000	24.01
879.5000	24.02
880.0000	24.02
880.5000	24.02
881.0000	24.02
881.5000	24.01
882.0000	24.02
882.5000	24.02
883.0000	24.02
883.5000	24.02
884.0000	24.02
884.5000	24.02
885.0000	24.02
885.5000	24.02
886.0000	24.01
886.5000	24.02
887.0000	24.02
887.5000	24.02
888.0000	24.02
888.5000	24.01
889.0000	24.02
889.5000	24.01
890.0000	24.02
890.5000	24.02
891.0000	24.02
891.5000	24.02
892.0000	24.02
892.5000	24.01
893.0000	24.02
893.5000	24.01
894.0000	24.02
894.5000	24.02
895.0000	24.02
895.5000	24.02
896.0000	24.02
896.5000	24.02
897.0000	24.02
897.5000	24.02
898.0000	24.01
898.5000	24.02
899.0000	24.02
899.5000	24.02
900.0000	24.02
900.5000	24.01
901.0000	24.01
901.5000	24.02
902.0000	24.02
902.5000	24.02
903.0000	24.02
903.5000	24.01
904.0000	24.01
904.5000	24.01
905.0000	24.02
905.5000	24.02
906.0000	24.01
906.5000	24.02
907.0000	24.01
907.5000	24.01
908.0000	24.01
908.5000	24.01
909.0000	24.01
909.5000	24.01
910.0000	24.01
910.5000	24.01
911.0000	24.01
911.5000	24.01
912.0000	24.01
912.5000	24.01
913.0000	24.01
913.5000	24.01
914.0000	24.01
914.5000	24.01
915.0000	24.01
915.5000	24.01
916.0000	24.02
916.5000	24.01
917.0000	24.00
917.5000	24.00
918.0000	24.01
918.5000	24.01
919.0000	24.01
919.5000	24.00
920.0000	24.01
920.5000	24.01
921.0000	24.01
921.5000	24.00
922.0000	24.01
922.5000	24.01
923.0000	24.01
923.5000	24.00
924.0000	24.01
924.5000	24.01
925.0000	24.01
925.5000	24.00
926.0000	24.01
926.5000	24.00
927.0000	24.01
927.5000	24.00
928.0000	24.00
928.5000	24.00
929.0000	24.01
929.5000	24.00
930.0000	24.01
930.5000	24.00
931.0000	24.00
931.5000	24.00
932.0000	24.01
932.5000	24.00
933.0000	24.01
933.5000	24.00
934.0000	24.01
934.5000	24.00
935.0000	24.00
935.5000	24.00
936.0000	24.01
936.5000	24.00
937.0000	24.00
937.5000	24.00
938.0000	24.01
938.5000	24.00
939.0000	24.00
939.5000	24.00
940.0000	24.00
940.5000	24.00
941.0000	24.00
941.5000	24.00
942.0000	24.00
942.5000	24.00
943.0000	24.00
943.5000	23.99
944.0000	24.00
944.5000	24.00
945.0000	24.00
945.5000	24.00
946.0000	24.00
946.5000	24.00
947.0000	24.00
947.5000	24.00
948.0000	24.00
948.5000	24.00
949.0000	24.00
949.5000	24.00
950.0000	24.00
950.5000	24.00
951.0000	24.00
951.5000	24.00
952.0000	24.00
952.5000	24.00
953.0000	24.00
953.5000	24.00
954.0000	23.99
954.5000	24.00
955.0000	24.00
955.5000	24.00
956.0000	24.00
956.5000	24.00
957.0000	24.00
957.5000	24.00
958.0000	23.99
958.5000	24.00
959.0000	24.00
959.5000	24.00
960.0000	24.00
960.5000	24.00
961.0000	24.00
961.5000	24.00
962.0000	23.99
962.5000	23.99
963.0000	24.00
963.5000	23.99
964.0000	24.00
964.5000	23.99
965.0000	23.99
965.5000	24.00
966.0000	24.00
966.5000	24.00
967.0000	24.00
967.5000	23.99
968.0000	24.00
968.5000	24.00
969.0000	23.99
969.5000	23.99
970.0000	23.99
970.5000	23.99
971.0000	23.99
971.5000	23.99
972.0000	23.99
972.5000	23.99
973.0000	23.99
973.5000	23.99
974.0000	23.99
974.5000	23.99
975.0000	23.99
975.5000	23.99
976.0000	23.99
976.5000	23.99
977.0000	23.99
977.5000	23.99
978.0000	23.99
978.5000	23.99
979.0000	23.99
979.5000	23.99
980.0000	23.99
980.5000	23.99
981.0000	23.99
981.5000	23.99
982.0000	24.00
982.5000	23.99
983.0000	23.99
983.5000	23.99
984.0000	23.99
984.5000	23.99
985.0000	23.99
985.5000	23.99
986.0000	23.99
986.5000	23.99
987.0000	23.99
987.5000	23.99
988.0000	23.99
988.5000	23.99
989.0000	23.99
989.5000	23.99
990.0000	23.99
990.5000	24.00
991.0000	23.99
991.5000	23.99
992.0000	23.99
992.5000	23.99
993.0000	23.99
993.5000	23.99
994.0000	23.99
994.5000	23.99
995.0000	23.99
995.5000	23.99
996.0000	23.99
996.5000	23.99
997.0000	23.99
997.5000	23.99
998.0000	23.99
998.5000	23.99
999.0000	23.99
999.5000	23.99
1000.0000	23.99
1000.5000	23.99
1001.0000	23.99
1001.5000	23.99
1002.0000	23.99
1002.5000	24.00
1003.0000	23.99
1003.5000	23.99
1004.0000	23.99
1004.5000	24.00
1005.0000	24.00
1005.5000	24.00
1006.0000	23.99
1006.5000	23.99
1007.0000	24.00
1007.5000	23.99
1008.0000	23.99
1008.5000	24.00
1009.0000	23.99
1009.5000	23.99
1010.0000	24.00
1010.5000	23.99
1011.0000	24.00
1011.5000	23.99
1012.0000	24.00
1012.5000	24.00
1013.0000	24.00
1013.5000	24.00
1014.0000	24.00
1014.5000	24.00
1015.0000	24.00
1015.5000	24.00
1016.0000	24.00
1016.5000	23.99
1017.0000	24.00
1017.5000	24.00
1018.0000	24.00
1018.5000	24.00
1019.0000	23.99
1019.5000	24.00
1020.0000	23.99
1020.5000	24.00
1021.0000	24.00
1021.5000	23.99
1022.0000	23.99
1022.5000	24.00
1023.0000	24.00
1023.5000	24.00
1024.0000	24.00
1024.5000	24.00
1025.0000	24.00
1025.5000	24.00
1026.0000	24.00
1026.5000	24.00
1027.0000	24.00
1027.5000	24.00
1028.0000	24.00
1028.5000	24.00
1029.0000	24.00
1029.5000	24.00
1030.0000	24.00
1030.5000	24.00
1031.0000	24.00
1031.5000	24.00
1032.0000	24.00
1032.5000	24.00
1033.0000	24.00
1033.5000	24.00
1034.0000	24.00
1034.5000	23.99
1035.0000	24.00
1035.5000	24.00
1036.0000	23.99
1036.5000	24.00
1037.0000	24.00
1037.5000	24.00
1038.0000	24.00
1038.5000	23.99
1039.0000	24.00
1039.5000	24.00
1040.0000	24.00
1040.5000	24.00
1041.0000	23.99
1041.5000	23.99
1042.0000	24.00
1042.5000	23.99
1043.0000	24.00
1043.5000	24.00
1044.0000	24.00
1044.5000	23.99
1045.0000	24.00
1045.5000	24.00
1046.0000	24.00
1046.5000	24.00
1047.0000	23.99
1047.5000	24.00
1048.0000	24.00
1048.5000	24.00
1049.0000	24.00
1049.5000	24.00
1050.0000	24.00
1050.5000	24.00
1051.0000	24.00
1051.5000	23.99
1052.0000	23.99
1052.5000	23.99
1053.0000	24.00
1053.5000	23.99
1054.0000	23.99
1054.5000	23.99
1055.0000	23.99
1055.5000	23.99
1056.0000	23.99
1056.5000	23.99
1057.0000	23.98
1057.5000	23.98
1058.0000	23.99
1058.5000	23.99
1059.0000	23.99
1059.5000	23.99
1060.0000	23.99
1060.5000	23.99
1061.0000	23.98
1061.5000	23.98
1062.0000	23.98
1062.5000	23.98
1063.0000	23.98
1063.5000	23.97
1064.0000	23.98
1064.5000	23.98
1065.0000	23.97
1065.5000	23.98
1066.0000	23.97
1066.5000	23.97
1067.0000	23.97
1067.5000	23.97
1068.0000	23.97
1068.5000	23.97
1069.0000	23.96
1069.5000	23.96
1070.0000	23.96
1070.5000	23.96
1071.0000	23.96
1071.5000	23.97
1072.0000	23.96
1072.5000	23.96
1073.0000	23.96
1073.5000	23.96
1074.0000	23.96
1074.5000	23.95
1075.0000	23.96
1075.5000	23.96
1076.0000	23.95
1076.5000	23.95
1077.0000	23.95
1077.5000	23.95
1078.0000	23.95
1078.5000	23.95
1079.0000	23.95
1079.5000	23.95
1080.0000	23.95
1080.5000	23.95
1081.0000	23.95
1081.5000	23.95
1082.0000	23.96
1082.5000	23.95
1083.0000	23.95
1083.5000	23.95
1084.0000	23.95
1084.5000	23.94
1085.0000	23.94
1085.5000	23.94
1086.0000	23.94
1086.5000	23.94
1087.0000	23.94
1087.5000	23.94
1088.0000	23.94
1088.5000	23.94
1089.0000	23.94
1089.5000	23.94
1090.0000	23.94
1090.5000	23.94
1091.0000	23.94
1091.5000	23.93
1092.0000	23.94
1092.5000	23.94
1093.0000	23.94
1093.5000	23.94
1094.0000	23.94
1094.5000	23.94
1095.0000	23.94
1095.5000	23.94
1096.0000	23.93
1096.5000	23.93
1097.0000	23.93
1097.5000	23.93
1098.0000	23.93
1098.5000	23.93
1099.0000	23.93
1099.5000	23.93
1100.0000	23.93
1100.5000	23.93
1101.0000	23.93
1101.5000	23.93
1102.0000	23.92
1102.5000	23.93
1103.0000	23.92
1103.5000	23.92
1104.0000	23.92
1104.5000	23.92
1105.0000	23.92
1105.5000	23.91
1106.0000	23.91
1106.5000	23.91
1107.0000	23.91
1107.5000	23.92
1108.0000	23.91
1108.5000	23.91
1109.0000	23.91
1109.5000	23.91
1110.0000	23.91
1110.5000	23.91
1111.0000	23.90
1111.5000	23.91
1112.0000	23.91
1112.5000	23.90
1113.0000	23.91
1113.5000	23.90
1114.0000	23.90
1114.5000	23.90
1115.0000	23.90
1115.5000	23.89
1116.0000	23.90
1116.5000	23.89
1117.0000	23.90
1117.5000	23.90
1118.0000	23.89
1118.5000	23.89
1119.0000	23.89
1119.5000	23.89
1120.0000	23.89
1120.5000	23.89
1121.0000	23.89
1121.5000	23.89
1122.0000	23.89
1122.5000	23.89
1123.0000	23.89
1123.5000	23.88
1124.0000	23.88
1124.5000	23.88
1125.0000	23.89
1125.5000	23.88
1126.0000	23.88
1126.5000	23.88
1127.0000	23.88
1127.5000	23.87
1128.0000	23.88
1128.5000	23.88
1129.0000	23.87
1129.5000	23.87
1130.0000	23.87
1130.5000	23.87
1131.0000	23.87
1131.5000	23.87
1132.0000	23.87
1132.5000	23.87
1133.0000	23.87
1133.5000	23.87
1134.0000	23.87
1134.5000	23.86
1135.0000	23.86
1135.5000	23.86
1136.0000	23.86
